wavelength[μm],reflectance
1.00135,NaN
1.00790,NaN
1.01445,0.21687
1.02100,0.21615
1.02755,0.21065
1.03410,0.21297
1.04065,0.21151
1.04720,0.20967
1.05375,0.21032
1.06030,0.21106
1.06685,0.21072
1.07341,0.21118
1.07996,0.20993
1.08651,0.21069
1.09307,0.21169
1.09962,0.21318
1.10617,0.21329
1.11273,0.2131
1.11928,0.21228
1.12584,0.21305
1.13239,0.21259
1.13895,0.21388
1.14551,0.21333
1.15206,0.21445
1.15862,0.21491
1.16518,0.21533
1.17173,0.21467
1.17829,0.2149
1.18485,0.21432
1.19141,0.21257
1.19797,0.21039
1.20453,0.20914
1.21109,0.21064
1.21765,0.2089
1.22421,0.21045
1.23077,0.21197
1.23733,0.21461
1.24389,0.21468
1.25045,0.21468
1.25701,0.21566
1.26357,0.21613
1.27014,0.21777
1.27670,0.21834
1.28326,0.21762
1.28983,0.21778
1.29639,0.21829
1.30295,0.21882
1.30952,0.21738
1.31608,0.21642
1.32265,0.21948
1.32921,0.21974
1.33578,0.21886
1.34234,0.21856
1.34891,0.21827
1.35548,0.21815
1.36205,0.21763
1.36861,0.21637
1.37518,0.21668
1.38175,0.21703
1.38832,0.21785
1.39489,0.21828
1.40145,0.21834
1.40802,0.21869
1.41459,0.22043
1.42116,0.2186
1.42773,0.2084
1.43431,0.20254
1.44088,0.20718
1.44745,0.21557
1.45402,0.22154
1.46059,0.22278
1.46716,0.22137
1.47374,0.22249
1.48031,0.22253
1.48688,0.22266
1.49346,0.22187
1.50003,0.22289
1.50661,0.22698
1.51318,0.22624
1.51976,0.22329
1.52633,0.22142
1.53291,0.2212
1.53948,0.22472
1.54606,0.22658
1.55264,0.22589
1.55921,0.22224
1.56579,0.21422
1.57237,0.21263
1.57895,0.21993
1.58552,0.22343
1.59210,0.22088
1.59868,0.21468
1.60526,0.21473
1.61184,0.21905
1.61842,0.22357
1.62500,0.22352
1.63158,0.22398
1.63816,0.2282
1.64474,0.22924
1.65133,0.22645
1.65791,0.22612
1.66449,0.22962
1.67107,0.22918
1.67766,0.22908
1.68424,0.22903
1.69082,0.23001
1.69741,0.23011
1.70399,0.2307
1.71058,0.2313
1.71716,0.23196
1.72375,0.23225
1.73033,0.23228
1.73692,0.23207
1.74351,0.23277
1.75009,0.23278
1.75668,0.23313
1.76327,0.23323
1.76985,0.23258
1.77644,0.23305
1.78303,0.23344
1.78962,0.23328
1.79621,0.23319
1.80280,0.2324
1.80939,0.23224
1.81598,0.23198
1.82257,0.23173
1.82916,0.23167
1.83575,0.23154
1.84234,0.23143
1.84893,0.23072
1.85552,0.22925
1.86212,0.22668
1.86871,0.22414
1.87530,0.22504
1.88190,0.22692
1.88849,0.2286
1.89508,0.22974
1.90168,0.23099
1.90827,0.23151
1.91487,0.23174
1.92146,0.23059
1.92806,0.22684
1.93465,0.21554
1.94125,0.19732
1.94785,0.1793
1.95444,0.17117
1.96104,0.18054
1.96764,0.19625
1.97424,0.20927
1.98084,0.21172
1.98743,0.19266
1.99403,0.1565
2.00063,0.12961
2.00723,0.13128
2.01383,0.15379
2.02043,0.17883
2.02703,0.19341
2.03363,0.19642
2.04024,0.19078
2.04684,0.18209
2.05344,0.17967
2.06004,0.18421
2.06664,0.19099
2.07325,0.19971
2.07985,0.20639
2.08645,0.21328
2.09306,0.21884
2.09966,0.22324
2.10627,0.22662
2.11287,0.23103
2.11948,0.23491
2.12608,0.23627
2.13269,0.23567
2.13930,0.23354
2.14590,0.23238
2.15251,0.23137
2.15912,0.23348
2.16572,0.23651
2.17233,0.23898
2.17894,0.23859
2.18555,0.23885
2.19216,0.23905
2.19877,0.23962
2.20538,0.2397
2.21199,0.24028
2.21860,0.2405
2.22521,0.24085
2.23182,0.24119
2.23843,0.2415
2.24504,0.24169
2.25165,0.24175
2.25827,0.24157
2.26488,0.24143
2.27149,0.24214
2.27810,0.24242
2.28472,0.24288
2.29133,0.243
2.29795,0.24281
2.30456,0.24223
2.31118,0.24192
2.31779,0.24124
2.32441,0.2407
2.33102,0.2407
2.33764,0.24064
2.34426,0.24103
2.35087,0.24123
2.35749,0.24071
2.36411,0.2405
2.37072,0.24073
2.37734,0.24021
2.38396,0.23918
2.39058,0.2395
2.39720,0.23992
2.40382,0.24044
2.41044,0.24106
2.41706,0.24157
2.42368,0.24108
2.43030,0.24116
2.43692,0.24135
2.44354,0.24139
2.45017,0.24061
2.45679,0.24022
2.46341,0.23898
2.47003,0.24027
2.47666,0.23911
2.48328,0.23714
2.48990,0.23731
2.49653,0.2379
2.50312,0.23705
2.50972,0.23641
2.51632,0.23521
2.52292,0.23507
2.52951,0.23363
2.53611,0.23296
2.54271,0.23175
2.54931,0.23033
2.55591,0.22892
2.56251,0.22643
2.56911,0.22476
2.57571,0.22264
2.58231,0.22047
2.58891,0.21766
2.59551,0.21575
2.60212,0.21509
2.60872,0.21572
2.61532,0.21597
2.62192,0.21579
2.62853,0.21701
2.63513,0.21543
2.64174,0.20845
2.64834,0.18996
2.65495,0.15158
2.66155,0.09037
2.66816,0.03894
2.67476,0.01799
2.68137,0.01421
2.68798,0.01779
2.69458,0.07443
2.70119,0.30657
2.76068,NaN
2.76729,NaN
2.77390,NaN
2.78052,NaN
2.78713,NaN
2.79374,NaN
2.80035,0.0125
2.80697,0.01728
2.81358,0.02139
2.82020,0.02489
2.82681,0.02757
2.83343,0.02937
2.84004,0.03066
2.84666,0.03209
2.85328,0.03413
2.85989,0.03635
2.86651,0.03811
2.87313,0.03939
2.87975,0.04046
2.88636,0.04104
2.89298,0.04125
2.89960,0.04118
2.90622,0.04085
2.91284,0.04046
2.91946,0.04002
2.92608,0.03961
2.93270,0.03955
2.93932,0.04003
2.94595,0.04054
2.95257,0.04096
2.95919,0.04119
2.96581,0.0417
2.97244,0.04229
2.97906,0.04309
2.98568,0.04381
2.99231,0.04448
2.99893,0.04494
3.00556,0.04525
3.01218,0.04596
3.01881,0.04715
3.02544,0.04821
3.03206,0.04899
3.03869,0.04923
3.04532,0.04943
3.05195,0.04969
3.05857,0.05028
3.06520,0.05068
3.07183,0.05129
3.07846,0.05198
3.08509,0.05223
3.09172,0.05271
3.09835,0.05342
3.10498,0.05421
3.11161,0.05513
3.11825,0.05589
3.12488,0.05668
3.13151,0.05742
3.13814,0.05828
3.14478,0.05976
3.15141,0.06172
3.15804,0.0641
3.16468,0.06631
3.17131,0.06882
3.17795,0.07114
3.18458,0.0733
3.19122,0.07614
3.19785,0.07841
3.20449,0.08045
3.21113,0.08234
3.21776,0.08405
3.22440,0.08687
3.23104,0.08988
3.23768,0.09213
3.24432,0.09378
3.25096,0.09498
3.25760,0.097
3.26424,0.09853
3.27088,0.09984
3.27752,0.10192
3.28416,0.10501
3.29080,0.10785
3.29744,0.11053
3.30408,0.11323
3.31073,0.11579
3.31737,0.11747
3.32401,0.11979
3.33066,0.12237
3.33730,0.12469
3.34395,0.12641
3.35059,0.12866
3.35724,0.13123
3.36388,0.13398
3.37053,0.13655
3.37717,0.13863
3.38382,0.14007
3.39047,0.14215
3.39712,0.145
3.40376,0.14771
3.41041,0.14921
3.41706,0.1505
3.42371,0.15264
3.43036,0.15547
3.43701,0.15815
3.44366,0.15961
3.45031,0.16086
3.45696,0.1635
3.46361,0.16647
3.47026,0.16936
3.47692,0.17161
3.48357,0.17453
3.49022,0.17738
3.49687,0.18001
3.50353,0.18232
3.51018,0.18519
3.51684,0.18855
3.52349,0.19247
3.53015,0.19564
3.53680,0.19885
3.54346,0.20219
3.55011,0.20556
3.55677,0.20855
3.56343,0.21109
3.57008,0.21341
3.57674,0.21607
3.58340,0.21831
3.59006,0.22017
3.59672,0.22162
3.60338,0.22343
3.61004,0.22432
3.61670,0.2241
3.62336,0.22559
3.63002,0.22817
3.63668,0.22977
3.64334,0.23077
3.65000,0.23268
3.65667,0.23499
3.66333,0.23543
3.66999,0.23613
3.67665,0.23748
3.68332,0.24015
3.68998,0.24273
3.69665,0.2438
3.70331,0.24356
3.70998,0.24411
3.71664,0.24441
3.72331,0.24385
3.72998,0.24374
3.73664,0.24454
3.74331,0.24547
3.74998,0.24524
3.75665,0.2441
3.76331,0.24313
3.76998,0.24243
3.77665,0.2411
3.78332,0.23853
3.78999,0.23696
3.79666,0.23727
3.80333,0.23847
3.81000,0.23883
3.81667,0.23799
3.82335,0.23849
3.83002,0.24013
3.83669,0.24122
3.84336,0.23971
3.85004,0.23741
3.85671,0.23588
3.86339,0.23522
3.87006,0.23563
3.87673,0.23693
3.88341,0.23887
3.89008,0.24091
3.89676,0.24263
3.90344,0.24452
3.91011,0.24563
3.91679,0.24179
3.92347,NaN
3.93015,NaN
3.93682,NaN
